File: aluminum_5_50nm step1.25nm.csv
,R_nm,wavelength_nm,abs
0,5.0,300,0.0259216
5,5.0,309.214,0.0236365
10,5.0,318.711,0.0216279
15,5.0,328.499,0.0198573
20,5.0,338.588,0.0182908
25,5.0,348.987,0.0169008
30,5.0,359.706,0.0156627
35,5.0,370.753,0.014551
40,5.0,382.14,0.013556
45,5.0,393.877,0.0126705
50,5.0,405.974,0.0118693
55,5.0,418.442,0.0111398
60,5.0,431.294,0.0104699
65,5.0,444.54,0.00986925
70,5.0,458.193,0.00930887
75,5.0,472.265,0.00878336
80,5.0,486.77,0.00830399
85,5.0,501.72,0.0078426
90,5.0,517.129,0.00740482
95,5.0,533.012,0.00698692
100,5.0,549.382,0.00658267
105,5.0,566.255,0.00619296
110,5.0,583.646,0.00581711
115,5.0,601.572,0.0054573
120,5.0,620.048,0.00511807
125,5.0,639.091,0.00481432
130,5.0,658.719,0.00451936
135,5.0,678.95,0.00435047
140,5.0,699.803,0.00416607
145,5.0,721.296,0.00421858
150,5.0,743.449,0.00427109
155,5.0,766.282,0.00437814
160,5.0,789.817,0.00460118
165,5.0,814.074,0.00482153
170,5.0,839.077,0.0045958
175,5.0,864.847,0.00419417
180,5.0,891.409,0.00377548
185,5.0,918.786,0.00313593
190,5.0,947.005,0.00257053
195,5.0,976.09,0.00207573
200,6.25,300,0.0259216
205,6.25,309.214,0.0236365
210,6.25,318.711,0.0216279
215,6.25,328.499,0.0198573
220,6.25,338.588,0.0182908
225,6.25,348.987,0.0169008
230,6.25,359.706,0.0156627
235,6.25,370.753,0.014551
240,6.25,382.14,0.013556
245,6.25,393.877,0.0126705
250,6.25,405.974,0.0118693
255,6.25,418.442,0.0111398
260,6.25,431.294,0.0104699
265,6.25,444.54,0.00986925
270,6.25,458.193,0.00930887
275,6.25,472.265,0.00878336
280,6.25,486.77,0.00830399
285,6.25,501.72,0.0078426
290,6.25,517.129,0.00740482
295,6.25,533.012,0.00698692
300,6.25,549.382,0.00658267
305,6.25,566.255,0.00619296
310,6.25,583.646,0.00581711
315,6.25,601.572,0.0054573
320,6.25,620.048,0.00511807
325,6.25,639.091,0.00481432
330,6.25,658.719,0.00451936
335,6.25,678.95,0.00435047
340,6.25,699.803,0.00416607
345,6.25,721.296,0.00421858
350,6.25,743.449,0.00427109
355,6.25,766.282,0.00437814
360,6.25,789.817,0.00460118
365,6.25,814.074,0.00482153
370,6.25,839.077,0.0045958
375,6.25,864.847,0.00419417
380,6.25,891.409,0.00377548
385,6.25,918.786,0.00313593
390,6.25,947.005,0.00257053
395,6.25,976.09,0.00207573
400,7.5,300,0.109504
405,7.5,309.214,0.0941015
410,7.5,318.711,0.0817476
415,7.5,328.499,0.0716976
420,7.5,338.588,0.063416
425,7.5,348.987,0.0565185
430,7.5,359.706,0.050714
435,7.5,370.753,0.0457682
440,7.5,382.14,0.0415398
445,7.5,393.877,0.037923
450,7.5,405.974,0.0347754
455,7.5,418.442,0.0320129
460,7.5,431.294,0.0295637
465,7.5,444.54,0.0274262
470,7.5,458.193,0.0254952
475,7.5,472.265,0.0237379
480,7.5,486.77,0.0221725
485,7.5,501.72,0.0207092
490,7.5,517.129,0.0193548
495,7.5,533.012,0.0180927
500,7.5,549.382,0.016899
505,7.5,566.255,0.0157718
510,7.5,583.646,0.0147043
515,7.5,601.572,0.0136977
520,7.5,620.048,0.0127609
525,7.5,639.091,0.0119255
530,7.5,658.719,0.0111272
535,7.5,678.95,0.0106443
540,7.5,699.803,0.010134
545,7.5,721.296,0.0102069
550,7.5,743.449,0.0102808
555,7.5,766.282,0.010506
560,7.5,789.817,0.0110299
565,7.5,814.074,0.011544
570,7.5,839.077,0.0110185
575,7.5,864.847,0.0100794
580,7.5,891.409,0.00909436
585,7.5,918.786,0.00754119
590,7.5,947.005,0.00616929
595,7.5,976.09,0.00497075
600,8.75,300,0.17324
605,8.75,309.214,0.140702
610,8.75,318.711,0.117097
615,8.75,328.499,0.0993492
620,8.75,338.588,0.0856125
625,8.75,348.987,0.0747357
630,8.75,359.706,0.0659517
635,8.75,370.753,0.0587193
640,8.75,382.14,0.0527066
645,8.75,393.877,0.0476793
650,8.75,405.974,0.0433906
655,8.75,418.442,0.0396902
660,8.75,431.294,0.036458
665,8.75,444.54,0.0336692
670,8.75,458.193,0.0311781
675,8.75,472.265,0.0289335
680,8.75,486.77,0.026949
685,8.75,501.72,0.0251088
690,8.75,517.129,0.0234168
695,8.75,533.012,0.0218491
700,8.75,549.382,0.0203743
705,8.75,566.255,0.0189881
710,8.75,583.646,0.0176805
715,8.75,601.572,0.0164518
720,8.75,620.048,0.0153115
725,8.75,639.091,0.0142968
730,8.75,658.719,0.0133297
735,8.75,678.95,0.0127429
740,8.75,699.803,0.0121252
745,8.75,721.296,0.0122061
750,8.75,743.449,0.0122891
755,8.75,766.282,0.0125516
760,8.75,789.817,0.013169
765,8.75,814.074,0.0137745
770,8.75,839.077,0.0131381
775,8.75,864.847,0.0120094
780,8.75,891.409,0.0108282
785,8.75,918.786,0.00897594
790,8.75,947.005,0.00734093
795,8.75,976.09,0.00591334
800,10.0,300,0.17324
805,10.0,309.214,0.140702
810,10.0,318.711,0.117097
815,10.0,328.499,0.0993492
820,10.0,338.588,0.0856125
825,10.0,348.987,0.0747357
830,10.0,359.706,0.0659517
835,10.0,370.753,0.0587193
840,10.0,382.14,0.0527066
845,10.0,393.877,0.0476793
850,10.0,405.974,0.0433906
855,10.0,418.442,0.0396902
860,10.0,431.294,0.036458
865,10.0,444.54,0.0336692
870,10.0,458.193,0.0311781
875,10.0,472.265,0.0289335
880,10.0,486.77,0.026949
885,10.0,501.72,0.0251088
890,10.0,517.129,0.0234168
895,10.0,533.012,0.0218491
900,10.0,549.382,0.0203743
905,10.0,566.255,0.0189881
910,10.0,583.646,0.0176805
915,10.0,601.572,0.0164518
920,10.0,620.048,0.0153115
925,10.0,639.091,0.0142968
930,10.0,658.719,0.0133297
935,10.0,678.95,0.0127429
940,10.0,699.803,0.0121252
945,10.0,721.296,0.0122061
950,10.0,743.449,0.0122891
955,10.0,766.282,0.0125516
960,10.0,789.817,0.013169
965,10.0,814.074,0.0137745
970,10.0,839.077,0.0131381
975,10.0,864.847,0.0120094
980,10.0,891.409,0.0108282
985,10.0,918.786,0.00897594
990,10.0,947.005,0.00734093
995,10.0,976.09,0.00591334
1000,11.25,300,0.29899
1005,11.25,309.214,0.221255
1010,11.25,318.711,0.158322
1015,11.25,328.499,0.119878
1020,11.25,338.588,0.0961192
1025,11.25,348.987,0.0803386
1030,11.25,359.706,0.0690922
1035,11.25,370.753,0.0605987
1040,11.25,382.14,0.0539361
1045,11.25,393.877,0.0485772
1050,11.25,405.974,0.0441244
1055,11.25,418.442,0.0403481
1060,11.25,431.294,0.0370854
1065,11.25,444.54,0.0342892
1070,11.25,458.193,0.0318001
1075,11.25,472.265,0.0295603
1080,11.25,486.77,0.0275799
1085,11.25,501.72,0.0257408
1090,11.25,517.129,0.0240466
1095,11.25,533.012,0.0224727
1100,11.25,549.382,0.0209883
1105,11.25,566.255,0.0195891
1110,11.25,583.646,0.0182661
1115,11.25,601.572,0.0170204
1120,11.25,620.048,0.0158623
1125,11.25,639.091,0.0148321
1130,11.25,658.719,0.0138471
1135,11.25,678.95,0.0132577
1140,11.25,699.803,0.0126327
1145,11.25,721.296,0.0127336
1150,11.25,743.449,0.0128367
1155,11.25,766.282,0.0131171
1160,11.25,789.817,0.0137578
1165,11.25,814.074,0.0143877
1170,11.25,839.077,0.0137052
1175,11.25,864.847,0.0125062
1180,11.25,891.409,0.0112571
1185,11.25,918.786,0.00933215
1190,11.25,947.005,0.00763425
1195,11.25,976.09,0.00615214
1200,12.5,300,1.57563
1205,12.5,309.214,1.13917
1210,12.5,318.711,0.858738
1215,12.5,328.499,0.670329
1220,12.5,338.588,0.538751
1225,12.5,348.987,0.443936
1230,12.5,359.706,0.373786
1235,12.5,370.753,0.320688
1240,12.5,382.14,0.280009
1245,12.5,393.877,0.248704
1250,12.5,405.974,0.224339
1255,12.5,418.442,0.205424
1260,12.5,431.294,0.190907
1265,12.5,444.54,0.18039
1270,12.5,458.193,0.173045
1275,12.5,472.265,0.168628
1280,12.5,486.77,0.167197
1285,12.5,501.72,0.168414
1290,12.5,517.129,0.172448
1295,12.5,533.012,0.179294
1300,12.5,549.382,0.189124
1305,12.5,566.255,0.201814
1310,12.5,583.646,0.21712
1315,12.5,601.572,0.234124
1320,12.5,620.048,0.250096
1325,12.5,639.091,0.260819
1330,12.5,658.719,0.261061
1335,12.5,678.95,0.243783
1340,12.5,699.803,0.2181
1345,12.5,721.296,0.187783
1350,12.5,743.449,0.162448
1355,12.5,766.282,0.147989
1360,12.5,789.817,0.141544
1365,12.5,814.074,0.135175
1370,12.5,839.077,0.134152
1375,12.5,864.847,0.135832
1380,12.5,891.409,0.13878
1385,12.5,918.786,0.13232
1390,12.5,947.005,0.121368
1395,12.5,976.09,0.10528
1400,13.75,300,0.557413
1405,13.75,309.214,0.400798
1410,13.75,318.711,0.32349
1415,13.75,328.499,0.300065
1420,13.75,338.588,0.311245
1425,13.75,348.987,0.320772
1430,13.75,359.706,0.279687
1435,13.75,370.753,0.208997
1440,13.75,382.14,0.152113
1445,13.75,393.877,0.11521
1450,13.75,405.974,0.0915023
1455,13.75,418.442,0.0755683
1460,13.75,431.294,0.0642539
1465,13.75,444.54,0.0559221
1470,13.75,458.193,0.049438
1475,13.75,472.265,0.044215
1480,13.75,486.77,0.0399727
1485,13.75,501.72,0.0363406
1490,13.75,517.129,0.0332065
1495,13.75,533.012,0.0304556
1500,13.75,549.382,0.0279861
1505,13.75,566.255,0.0257547
1510,13.75,583.646,0.023719
1515,13.75,601.572,0.0218582
1520,13.75,620.048,0.0201703
1525,13.75,639.091,0.0186895
1530,13.75,658.719,0.0173077
1535,13.75,678.95,0.0164425
1540,13.75,699.803,0.0155592
1545,13.75,721.296,0.0155857
1550,13.75,743.449,0.0156218
1555,13.75,766.282,0.0158972
1560,13.75,789.817,0.0166287
1565,13.75,814.074,0.0173431
1570,13.75,839.077,0.0165062
1575,13.75,864.847,0.0150606
1580,13.75,891.409,0.0135557
1585,13.75,918.786,0.0112121
1590,13.75,947.005,0.00915014
1595,13.75,976.09,0.00735564
1600,15.0,300,0.416217
1605,15.0,309.214,0.494578
1610,15.0,318.711,0.634953
1615,15.0,328.499,0.813254
1620,15.0,338.588,0.875463
1625,15.0,348.987,0.725098
1630,15.0,359.706,0.533123
1635,15.0,370.753,0.406683
1640,15.0,382.14,0.343039
1645,15.0,393.877,0.323041
1650,15.0,405.974,0.330037
1655,15.0,418.442,0.339513
1660,15.0,431.294,0.318726
1665,15.0,444.54,0.263737
1670,15.0,458.193,0.203288
1675,15.0,472.265,0.155419
1680,15.0,486.77,0.121768
1685,15.0,501.72,0.0981582
1690,15.0,517.129,0.0812915
1695,15.0,533.012,0.0688429
1700,15.0,549.382,0.0592597
1705,15.0,566.255,0.0516779
1710,15.0,583.646,0.0454993
1715,15.0,601.572,0.0403576
1720,15.0,620.048,0.0360448
1725,15.0,639.091,0.0324496
1730,15.0,658.719,0.0293226
1735,15.0,678.95,0.0272252
1740,15.0,699.803,0.0252654
1745,15.0,721.296,0.0248761
1750,15.0,743.449,0.0245572
1755,15.0,766.282,0.024726
1760,15.0,789.817,0.0256838
1765,15.0,814.074,0.026602
1770,15.0,839.077,0.0252722
1775,15.0,864.847,0.0230637
1780,15.0,891.409,0.0207668
1785,15.0,918.786,0.0170917
1790,15.0,947.005,0.0138736
1795,15.0,976.09,0.0110904
1800,16.25,300,0.416217
1805,16.25,309.214,0.494578
1810,16.25,318.711,0.634953
1815,16.25,328.499,0.813254
1820,16.25,338.588,0.875463
1825,16.25,348.987,0.725098
1830,16.25,359.706,0.533123
1835,16.25,370.753,0.406683
1840,16.25,382.14,0.343039
1845,16.25,393.877,0.323041
1850,16.25,405.974,0.330037
1855,16.25,418.442,0.339513
1860,16.25,431.294,0.318726
1865,16.25,444.54,0.263737
1870,16.25,458.193,0.203288
1875,16.25,472.265,0.155419
1880,16.25,486.77,0.121768
1885,16.25,501.72,0.0981582
1890,16.25,517.129,0.0812915
1895,16.25,533.012,0.0688429
1900,16.25,549.382,0.0592597
1905,16.25,566.255,0.0516779
1910,16.25,583.646,0.0454993
1915,16.25,601.572,0.0403576
1920,16.25,620.048,0.0360448
1925,16.25,639.091,0.0324496
1930,16.25,658.719,0.0293226
1935,16.25,678.95,0.0272252
1940,16.25,699.803,0.0252654
1945,16.25,721.296,0.0248761
1950,16.25,743.449,0.0245572
1955,16.25,766.282,0.024726
1960,16.25,789.817,0.0256838
1965,16.25,814.074,0.026602
1970,16.25,839.077,0.0252722
1975,16.25,864.847,0.0230637
1980,16.25,891.409,0.0207668
1985,16.25,918.786,0.0170917
1990,16.25,947.005,0.0138736
1995,16.25,976.09,0.0110904
2000,17.5,300,0.368526
2005,17.5,309.214,0.373255
2010,17.5,318.711,0.420448
2015,17.5,328.499,0.512582
2020,17.5,338.588,0.610934
2025,17.5,348.987,0.602139
2030,17.5,359.706,0.482238
2035,17.5,370.753,0.368294
2040,17.5,382.14,0.301718
2045,17.5,393.877,0.274804
2050,17.5,405.974,0.276366
2055,17.5,418.442,0.295954
2060,17.5,431.294,0.3137
2065,17.5,444.54,0.300804
2070,17.5,458.193,0.25311
2075,17.5,472.265,0.196261
2080,17.5,486.77,0.14967
2085,17.5,501.72,0.115971
2090,17.5,517.129,0.0923351
2095,17.5,533.012,0.0755387
2100,17.5,549.382,0.0631584
2105,17.5,566.255,0.0537719
2110,17.5,583.646,0.0464155
2115,17.5,601.572,0.0405006
2120,17.5,620.048,0.0356843
2125,17.5,639.091,0.0317564
2130,17.5,658.719,0.028427
2135,17.5,678.95,0.0261738
2140,17.5,699.803,0.0241264
2145,17.5,721.296,0.0236182
2150,17.5,743.449,0.0232046
2155,17.5,766.282,0.0232797
2160,17.5,789.817,0.0241104
2165,17.5,814.074,0.0249035
2170,17.5,839.077,0.0236136
2175,17.5,864.847,0.021516
2180,17.5,891.409,0.0193436
2185,17.5,918.786,0.0158926
2190,17.5,947.005,0.012878
2195,17.5,976.09,0.0102775
2200,18.75,300,0.61009
2205,18.75,309.214,0.478792
2210,18.75,318.711,0.38495
2215,18.75,328.499,0.332947
2220,18.75,338.588,0.31554
2225,18.75,348.987,0.327342
2230,18.75,359.706,0.36418
2235,18.75,370.753,0.405439
2240,18.75,382.14,0.403833
2245,18.75,393.877,0.351125
2250,18.75,405.974,0.295813
2255,18.75,418.442,0.264486
2260,18.75,431.294,0.25755
2265,18.75,444.54,0.268861
2270,18.75,458.193,0.287552
2275,18.75,472.265,0.295061
2280,18.75,486.77,0.274121
2285,18.75,501.72,0.229918
2290,18.75,517.129,0.181453
2295,18.75,533.012,0.141029
2300,18.75,549.382,0.110585
2305,18.75,566.255,0.0884056
2310,18.75,583.646,0.0720995
2315,18.75,601.572,0.0598684
2320,18.75,620.048,0.0505589
2325,18.75,639.091,0.0433586
2330,18.75,658.719,0.037646
2335,18.75,678.95,0.0337012
2340,18.75,699.803,0.0303681
2345,18.75,721.296,0.0291471
2350,18.75,743.449,0.0281671
2355,18.75,766.282,0.0279397
2360,18.75,789.817,0.0287122
2365,18.75,814.074,0.0294337
2370,18.75,839.077,0.0278485
2375,18.75,864.847,0.0253727
2380,18.75,891.409,0.0228138
2385,18.75,918.786,0.0186659
2390,18.75,947.005,0.015053
2395,18.75,976.09,0.0119519
2400,20.0,300,0.83915
2405,20.0,309.214,0.679152
2410,20.0,318.711,0.584891
2415,20.0,328.499,0.512457
2420,20.0,338.588,0.460601
2425,20.0,348.987,0.438491
2430,20.0,359.706,0.452834
2435,20.0,370.753,0.504254
2440,20.0,382.14,0.573754
2445,20.0,393.877,0.600277
2450,20.0,405.974,0.538519
2455,20.0,418.442,0.43877
2460,20.0,431.294,0.359299
2465,20.0,444.54,0.312914
2470,20.0,458.193,0.293185
2475,20.0,472.265,0.292284
2480,20.0,486.77,0.300919
2485,20.0,501.72,0.305738
2490,20.0,517.129,0.292245
2495,20.0,533.012,0.257378
2500,20.0,549.382,0.212288
2505,20.0,566.255,0.16961
2510,20.0,583.646,0.134764
2515,20.0,601.572,0.107995
2520,20.0,620.048,0.0879373
2525,20.0,639.091,0.072826
2530,20.0,658.719,0.0613854
2535,20.0,678.95,0.0534097
2540,20.0,699.803,0.0470523
2545,20.0,721.296,0.0442652
2550,20.0,743.449,0.0420816
2555,20.0,766.282,0.0413
2560,20.0,789.817,0.0421551
2565,20.0,814.074,0.0429307
2570,20.0,839.077,0.040617
2575,20.0,864.847,0.0371035
2580,20.0,891.409,0.0334609
2585,20.0,918.786,0.0273155
2590,20.0,947.005,0.0219533
2595,20.0,976.09,0.0173573
2600,21.25,300,0.751947
2605,21.25,309.214,0.772052
2610,21.25,318.711,0.686184
2615,21.25,328.499,0.568322
2620,21.25,338.588,0.475923
2625,21.25,348.987,0.410475
2630,21.25,359.706,0.362381
2635,21.25,370.753,0.332129
2640,21.25,382.14,0.326371
2645,21.25,393.877,0.34581
2650,21.25,405.974,0.387019
2655,21.25,418.442,0.435318
2660,21.25,431.294,0.456127
2665,21.25,444.54,0.424882
2670,21.25,458.193,0.366264
2675,21.25,472.265,0.315067
2680,21.25,486.77,0.284102
2685,21.25,501.72,0.27178
2690,21.25,517.129,0.273717
2695,21.25,533.012,0.28394
2700,21.25,549.382,0.294218
2705,21.25,566.255,0.293371
2710,21.25,583.646,0.273271
2715,21.25,601.572,0.235686
2720,21.25,620.048,0.191402
2725,21.25,639.091,0.149914
2730,21.25,658.719,0.117095
2735,21.25,678.95,0.0924324
2740,21.25,699.803,0.074754
2745,21.25,721.296,0.0645935
2750,21.25,743.449,0.0571959
2755,21.25,766.282,0.0534523
2760,21.25,789.817,0.0526859
2765,21.25,814.074,0.0518886
2770,21.25,839.077,0.048876
2775,21.25,864.847,0.0449911
2780,21.25,891.409,0.0409787
2785,21.25,918.786,0.0332372
2790,21.25,947.005,0.0263699
2795,21.25,976.09,0.0204818
2800,22.5,300,0.876912
2805,22.5,309.214,0.840172
2810,22.5,318.711,0.737614
2815,22.5,328.499,0.627642
2820,22.5,338.588,0.554336
2825,22.5,348.987,0.48419
2830,22.5,359.706,0.412981
2835,22.5,370.753,0.360816
2840,22.5,382.14,0.333738
2845,22.5,393.877,0.329462
2850,22.5,405.974,0.345628
2855,22.5,418.442,0.381191
2860,22.5,431.294,0.430037
2865,22.5,444.54,0.4707
2870,22.5,458.193,0.47225
2875,22.5,472.265,0.429522
2880,22.5,486.77,0.371802
2885,22.5,501.72,0.324482
2890,22.5,517.129,0.295088
2895,22.5,533.012,0.282063
2900,22.5,549.382,0.281728
2905,22.5,566.255,0.289564
2910,22.5,583.646,0.299243
2915,22.5,601.572,0.301462
2920,22.5,620.048,0.286442
2925,22.5,639.091,0.251393
2930,22.5,658.719,0.207036
2935,22.5,678.95,0.162187
2940,22.5,699.803,0.12736
2945,22.5,721.296,0.104461
2950,22.5,743.449,0.0883386
2955,22.5,766.282,0.0798301
2960,22.5,789.817,0.0766626
2965,22.5,814.074,0.0737174
2970,22.5,839.077,0.0694628
2975,22.5,864.847,0.0646439
2980,22.5,891.409,0.059708
2985,22.5,918.786,0.0488395
2990,22.5,947.005,0.0387802
2995,22.5,976.09,0.0299314
3000,23.75,300,0.810974
3005,23.75,309.214,0.796307
3010,23.75,318.711,0.75292
3015,23.75,328.499,0.657523
3020,23.75,338.588,0.569068
3025,23.75,348.987,0.486268
3030,23.75,359.706,0.407115
3035,23.75,370.753,0.347828
3040,23.75,382.14,0.312832
3045,23.75,393.877,0.300371
3050,23.75,405.974,0.307397
3055,23.75,418.442,0.332226
3060,23.75,431.294,0.371432
3065,23.75,444.54,0.411792
3070,23.75,458.193,0.427725
3075,23.75,472.265,0.403608
3080,23.75,486.77,0.356287
3085,23.75,501.72,0.311808
3090,23.75,517.129,0.28191
3095,23.75,533.012,0.267369
3100,23.75,549.382,0.265456
3105,23.75,566.255,0.2725
3110,23.75,583.646,0.283444
3115,23.75,601.572,0.290343
3120,23.75,620.048,0.282926
3125,23.75,639.091,0.255032
3130,23.75,658.719,0.213915
3135,23.75,678.95,0.168317
3140,23.75,699.803,0.131643
3145,23.75,721.296,0.106637
3150,23.75,743.449,0.0890633
3155,23.75,766.282,0.0796774
3160,23.75,789.817,0.0758738
3165,23.75,814.074,0.0723819
3170,23.75,839.077,0.0681487
3175,23.75,864.847,0.063567
3180,23.75,891.409,0.0589009
3185,23.75,918.786,0.0482791
3190,23.75,947.005,0.0383312
3195,23.75,976.09,0.0295178
3200,25.0,300,0.78922
3205,25.0,309.214,0.739617
3210,25.0,318.711,0.735137
3215,25.0,328.499,0.7753
3220,25.0,338.588,0.828461
3225,25.0,348.987,0.792133
3230,25.0,359.706,0.670021
3235,25.0,370.753,0.563855
3240,25.0,382.14,0.493267
3245,25.0,393.877,0.434918
3250,25.0,405.974,0.381487
3255,25.0,418.442,0.336412
3260,25.0,431.294,0.304479
3265,25.0,444.54,0.288423
3270,25.0,458.193,0.28636
3275,25.0,472.265,0.294498
3280,25.0,486.77,0.305876
3285,25.0,501.72,0.310682
3290,25.0,517.129,0.301998
3295,25.0,533.012,0.28329
3300,25.0,549.382,0.264228
3305,25.0,566.255,0.25183
3310,25.0,583.646,0.248574
3315,25.0,601.572,0.254563
3320,25.0,620.048,0.268139
3325,25.0,639.091,0.286078
3330,25.0,658.719,0.298421
3335,25.0,678.95,0.289843
3340,25.0,699.803,0.258737
3345,25.0,721.296,0.210971
3350,25.0,743.449,0.169674
3355,25.0,766.282,0.143404
3360,25.0,789.817,0.12823
3365,25.0,814.074,0.115574
3370,25.0,839.077,0.108548
3375,25.0,864.847,0.103509
3380,25.0,891.409,0.098959
3385,25.0,918.786,0.0859014
3390,25.0,947.005,0.0709998
3395,25.0,976.09,0.0554881
3400,26.25,300,0.808472
3405,26.25,309.214,0.723619
3410,26.25,318.711,0.69009
3415,26.25,328.499,0.708066
3420,26.25,338.588,0.766404
3425,26.25,348.987,0.814841
3430,26.25,359.706,0.763347
3435,26.25,370.753,0.645017
3440,26.25,382.14,0.548673
3445,26.25,393.877,0.481909
3450,26.25,405.974,0.421702
3455,26.25,418.442,0.366465
3460,26.25,431.294,0.32362
3465,26.25,444.54,0.297359
3470,26.25,458.193,0.286713
3475,26.25,472.265,0.288985
3480,26.25,486.77,0.300069
3485,26.25,501.72,0.313136
3490,26.25,517.129,0.318681
3495,26.25,533.012,0.310044
3500,26.25,549.382,0.290379
3505,26.25,566.255,0.269048
3510,26.25,583.646,0.253591
3515,26.25,601.572,0.247258
3520,26.25,620.048,0.250318
3525,26.25,639.091,0.261955
3530,26.25,658.719,0.276158
3535,26.25,678.95,0.282592
3540,26.25,699.803,0.269877
3545,26.25,721.296,0.231187
3550,26.25,743.449,0.190423
3555,26.25,766.282,0.161002
3560,26.25,789.817,0.142409
3565,26.25,814.074,0.127142
3570,26.25,839.077,0.119449
3575,26.25,864.847,0.114456
3580,26.25,891.409,0.110184
3585,26.25,918.786,0.0982849
3590,26.25,947.005,0.0834953
3595,26.25,976.09,0.0666237
3600,27.5,300,1.09615
3605,27.5,309.214,0.987382
3610,27.5,318.711,0.866174
3615,27.5,328.499,0.764399
3620,27.5,338.588,0.688477
3625,27.5,348.987,0.653494
3630,27.5,359.706,0.657713
3635,27.5,370.753,0.662902
3640,27.5,382.14,0.621476
3645,27.5,393.877,0.554352
3650,27.5,405.974,0.499342
3655,27.5,418.442,0.45169
3660,27.5,431.294,0.403515
3665,27.5,444.54,0.362679
3670,27.5,458.193,0.333081
3675,27.5,472.265,0.314569
3680,27.5,486.77,0.307567
3685,27.5,501.72,0.311008
3690,27.5,517.129,0.322081
3695,27.5,533.012,0.334765
3700,27.5,549.382,0.34092
3705,27.5,566.255,0.333552
3710,27.5,583.646,0.313412
3715,27.5,601.572,0.288368
3720,27.5,620.048,0.267167
3725,27.5,639.091,0.255288
3730,27.5,658.719,0.253466
3735,27.5,678.95,0.263405
3740,27.5,699.803,0.276177
3745,27.5,721.296,0.276135
3750,27.5,743.449,0.259505
3755,27.5,766.282,0.23115
3760,27.5,789.817,0.203154
3765,27.5,814.074,0.179507
3770,27.5,839.077,0.168278
3775,27.5,864.847,0.161654
3780,27.5,891.409,0.156266
3785,27.5,918.786,0.152893
3790,27.5,947.005,0.147286
3795,27.5,976.09,0.135206
3800,28.75,300,1.04042
3805,28.75,309.214,0.953194
3810,28.75,318.711,0.878817
3815,28.75,328.499,0.77268
3820,28.75,338.588,0.673204
3825,28.75,348.987,0.605927
3830,28.75,359.706,0.570273
3835,28.75,370.753,0.563764
3840,28.75,382.14,0.575436
3845,28.75,393.877,0.5707
3850,28.75,405.974,0.533986
3855,28.75,418.442,0.479831
3860,28.75,431.294,0.420134
3865,28.75,444.54,0.368547
3870,28.75,458.193,0.33091
3875,28.75,472.265,0.304967
3880,28.75,486.77,0.289345
3885,28.75,501.72,0.283516
3890,28.75,517.129,0.286703
3895,28.75,533.012,0.296288
3900,28.75,549.382,0.307982
3905,28.75,566.255,0.315116
3910,28.75,583.646,0.311832
3915,28.75,601.572,0.297522
3920,28.75,620.048,0.278287
3925,28.75,639.091,0.262521
3930,28.75,658.719,0.255062
3935,28.75,678.95,0.260344
3940,28.75,699.803,0.272382
3945,28.75,721.296,0.279758
3950,28.75,743.449,0.273638
3955,28.75,766.282,0.250278
3960,28.75,789.817,0.221263
3965,28.75,814.074,0.195777
3970,28.75,839.077,0.18312
3975,28.75,864.847,0.175357
3980,28.75,891.409,0.168801
3985,28.75,918.786,0.169428
3990,28.75,947.005,0.170469
3995,28.75,976.09,0.167343
4000,30.0,300,1.12437
4005,30.0,309.214,1.04275
4010,30.0,318.711,1.00037
4015,30.0,328.499,0.964867
4020,30.0,338.588,0.900153
4025,30.0,348.987,0.826008
4030,30.0,359.706,0.758548
4035,30.0,370.753,0.703198
4040,30.0,382.14,0.676395
4045,30.0,393.877,0.656551
4050,30.0,405.974,0.612234
4055,30.0,418.442,0.556376
4060,30.0,431.294,0.50993
4065,30.0,444.54,0.465334
4070,30.0,458.193,0.414956
4075,30.0,472.265,0.366974
4080,30.0,486.77,0.329503
4085,30.0,501.72,0.3037
4090,30.0,517.129,0.288901
4095,30.0,533.012,0.283319
4100,30.0,549.382,0.284919
4105,30.0,566.255,0.290774
4110,30.0,583.646,0.296674
4115,30.0,601.572,0.297197
4120,30.0,620.048,0.288308
4125,30.0,639.091,0.271842
4130,30.0,658.719,0.254488
4135,30.0,678.95,0.244979
4140,30.0,699.803,0.244309
4145,30.0,721.296,0.251981
4150,30.0,743.449,0.258231
4155,30.0,766.282,0.250349
4160,30.0,789.817,0.230578
4165,30.0,814.074,0.210772
4170,30.0,839.077,0.196515
4175,30.0,864.847,0.184835
4180,30.0,891.409,0.173785
4185,30.0,918.786,0.174533
4190,30.0,947.005,0.180537
4195,30.0,976.09,0.193087
4200,31.25,300,1.21234
4205,31.25,309.214,1.15316
4210,31.25,318.711,1.08498
4215,31.25,328.499,0.997499
4220,31.25,338.588,0.912592
4225,31.25,348.987,0.823934
4230,31.25,359.706,0.727369
4235,31.25,370.753,0.64017
4240,31.25,382.14,0.584544
4245,31.25,393.877,0.566474
4250,31.25,405.974,0.572358
4255,31.25,418.442,0.576853
4260,31.25,431.294,0.557665
4265,31.25,444.54,0.51971
4270,31.25,458.193,0.474519
4275,31.25,472.265,0.42552
4280,31.25,486.77,0.380047
4285,31.25,501.72,0.344235
4290,31.25,517.129,0.318441
4295,31.25,533.012,0.300115
4300,31.25,549.382,0.287952
4305,31.25,566.255,0.281768
4310,31.25,583.646,0.280802
4315,31.25,601.572,0.282717
4320,31.25,620.048,0.283072
4325,31.25,639.091,0.277855
4330,31.25,658.719,0.266015
4335,31.25,678.95,0.254458
4340,31.25,699.803,0.248448
4345,31.25,721.296,0.252628
4350,31.25,743.449,0.259833
4355,31.25,766.282,0.256598
4360,31.25,789.817,0.240901
4365,31.25,814.074,0.223795
4370,31.25,839.077,0.20815
4375,31.25,864.847,0.193856
4380,31.25,891.409,0.180092
4385,31.25,918.786,0.179022
4390,31.25,947.005,0.183234
4395,31.25,976.09,0.195509
4400,32.5,300,1.1652
4405,32.5,309.214,1.13076
4410,32.5,318.711,1.10127
4415,32.5,328.499,1.05086
4420,32.5,338.588,0.982982
4425,32.5,348.987,0.933717
4430,32.5,359.706,0.859647
4435,32.5,370.753,0.751479
4440,32.5,382.14,0.648613
4445,32.5,393.877,0.574224
4450,32.5,405.974,0.534888
4455,32.5,418.442,0.523024
4460,32.5,431.294,0.52187
4465,32.5,444.54,0.511357
4470,32.5,458.193,0.484456
4475,32.5,472.265,0.44582
4480,32.5,486.77,0.401606
4485,32.5,501.72,0.359906
4490,32.5,517.129,0.326662
4495,32.5,533.012,0.302108
4500,32.5,549.382,0.284356
4505,32.5,566.255,0.27263
4510,32.5,583.646,0.266959
4515,32.5,601.572,0.267087
4520,32.5,620.048,0.2712
4525,32.5,639.091,0.276237
4530,32.5,658.719,0.2758
4535,32.5,678.95,0.268546
4540,32.5,699.803,0.257941
4545,32.5,721.296,0.252791
4550,32.5,743.449,0.253233
4555,32.5,766.282,0.24941
4560,32.5,789.817,0.236885
4565,32.5,814.074,0.222832
4570,32.5,839.077,0.20736
4575,32.5,864.847,0.192284
4580,32.5,891.409,0.177778
4585,32.5,918.786,0.172896
4590,32.5,947.005,0.171265
4595,32.5,976.09,0.175229
4600,33.75,300,1.24751
4605,33.75,309.214,1.27449
4610,33.75,318.711,1.23279
4615,33.75,328.499,1.1096
4620,33.75,338.588,0.97034
4625,33.75,348.987,0.867189
4630,33.75,359.706,0.808702
4635,33.75,370.753,0.768014
4640,33.75,382.14,0.730085
4645,33.75,393.877,0.689198
4650,33.75,405.974,0.643598
4655,33.75,418.442,0.608537
4660,33.75,431.294,0.590089
4665,33.75,444.54,0.57345
4670,33.75,458.193,0.54307
4675,33.75,472.265,0.504819
4680,33.75,486.77,0.470263
4685,33.75,501.72,0.438251
4690,33.75,517.129,0.403775
4695,33.75,533.012,0.368157
4700,33.75,549.382,0.335998
4705,33.75,566.255,0.310024
4710,33.75,583.646,0.290828
4715,33.75,601.572,0.278631
4720,33.75,620.048,0.273304
4725,33.75,639.091,0.274697
4730,33.75,658.719,0.278481
4735,33.75,678.95,0.282348
4740,33.75,699.803,0.278764
4745,33.75,721.296,0.27116
4750,33.75,743.449,0.265926
4755,33.75,766.282,0.259716
4760,33.75,789.817,0.248753
4765,33.75,814.074,0.236928
4770,33.75,839.077,0.220638
4775,33.75,864.847,0.203704
4780,33.75,891.409,0.187577
4785,33.75,918.786,0.178509
4790,33.75,947.005,0.170316
4795,33.75,976.09,0.163939
4800,35.0,300,1.23545
4805,35.0,309.214,1.19803
4810,35.0,318.711,1.16122
4815,35.0,328.499,1.10728
4820,35.0,338.588,1.05192
4825,35.0,348.987,0.985471
4830,35.0,359.706,0.891605
4835,35.0,370.753,0.811389
4840,35.0,382.14,0.764955
4845,35.0,393.877,0.736145
4850,35.0,405.974,0.70143
4855,35.0,418.442,0.649858
4860,35.0,431.294,0.597343
4865,35.0,444.54,0.561559
4870,35.0,458.193,0.541732
4875,35.0,472.265,0.52502
4880,35.0,486.77,0.50294
4885,35.0,501.72,0.477312
4890,35.0,517.129,0.449227
4895,35.0,533.012,0.416542
4900,35.0,549.382,0.380695
4905,35.0,566.255,0.346814
4910,35.0,583.646,0.318535
4915,35.0,601.572,0.297008
4920,35.0,620.048,0.282482
4925,35.0,639.091,0.27579
4930,35.0,658.719,0.274981
4935,35.0,678.95,0.281639
4940,35.0,699.803,0.285878
4945,35.0,721.296,0.284516
4950,35.0,743.449,0.27959
4955,35.0,766.282,0.271352
4960,35.0,789.817,0.259778
4965,35.0,814.074,0.248323
4970,35.0,839.077,0.231392
4975,35.0,864.847,0.213424
4980,35.0,891.409,0.196489
4985,35.0,918.786,0.186203
4990,35.0,947.005,0.175645
4995,35.0,976.09,0.163998
5000,36.25,300,1.21123
5005,36.25,309.214,1.17742
5010,36.25,318.711,1.1665
5015,36.25,328.499,1.17505
5020,36.25,338.588,1.15363
5025,36.25,348.987,1.08201
5030,36.25,359.706,0.975578
5035,36.25,370.753,0.876612
5040,36.25,382.14,0.817641
5045,36.25,393.877,0.786122
5050,36.25,405.974,0.75229
5055,36.25,418.442,0.705434
5060,36.25,431.294,0.65333
5065,36.25,444.54,0.608387
5070,36.25,458.193,0.576921
5075,36.25,472.265,0.557054
5080,36.25,486.77,0.539439
5085,36.25,501.72,0.516969
5090,36.25,517.129,0.489098
5095,36.25,533.012,0.455657
5100,36.25,549.382,0.41695
5105,36.25,566.255,0.377303
5110,36.25,583.646,0.341864
5115,36.25,601.572,0.313185
5120,36.25,620.048,0.291765
5125,36.25,639.091,0.278169
5130,36.25,658.719,0.271135
5135,36.25,678.95,0.273804
5140,36.25,699.803,0.27758
5145,36.25,721.296,0.279987
5150,36.25,743.449,0.278042
5155,36.25,766.282,0.270905
5160,36.25,789.817,0.260136
5165,36.25,814.074,0.249678
5170,36.25,839.077,0.232427
5175,36.25,864.847,0.213592
5180,36.25,891.409,0.195749
5185,36.25,918.786,0.184696
5190,36.25,947.005,0.17385
5195,36.25,976.09,0.161716
5200,37.5,300,1.27362
5205,37.5,309.214,1.21423
5210,37.5,318.711,1.13863
5215,37.5,328.499,1.08214
5220,37.5,338.588,1.05073
5225,37.5,348.987,1.03061
5230,37.5,359.706,0.993367
5235,37.5,370.753,0.919163
5240,37.5,382.14,0.840258
5245,37.5,393.877,0.787714
5250,37.5,405.974,0.751817
5255,37.5,418.442,0.706615
5260,37.5,431.294,0.648624
5265,37.5,444.54,0.590993
5270,37.5,458.193,0.545705
5275,37.5,472.265,0.51795
5280,37.5,486.77,0.503899
5285,37.5,501.72,0.493242
5290,37.5,517.129,0.47748
5295,37.5,533.012,0.45365
5300,37.5,549.382,0.421953
5305,37.5,566.255,0.3851
5310,37.5,583.646,0.348498
5315,37.5,601.572,0.316919
5320,37.5,620.048,0.292283
5325,37.5,639.091,0.274746
5330,37.5,658.719,0.262992
5335,37.5,678.95,0.26073
5340,37.5,699.803,0.261893
5345,37.5,721.296,0.265994
5350,37.5,743.449,0.26653
5355,37.5,766.282,0.260588
5360,37.5,789.817,0.250516
5365,37.5,814.074,0.240814
5370,37.5,839.077,0.224132
5375,37.5,864.847,0.205704
5380,37.5,891.409,0.188175
5385,37.5,918.786,0.177351
5390,37.5,947.005,0.167458
5395,37.5,976.09,0.156738
5400,38.75,300,1.26666
5405,38.75,309.214,1.20267
5410,38.75,318.711,1.13287
5415,38.75,328.499,1.07067
5420,38.75,338.588,1.01993
5425,38.75,348.987,0.992998
5430,38.75,359.706,0.984393
5435,38.75,370.753,0.970684
5440,38.75,382.14,0.917466
5445,38.75,393.877,0.832551
5450,38.75,405.974,0.75857
5455,38.75,418.442,0.710987
5460,38.75,431.294,0.67681
5465,38.75,444.54,0.640524
5470,38.75,458.193,0.596771
5475,38.75,472.265,0.553021
5480,38.75,486.77,0.520163
5485,38.75,501.72,0.500709
5490,38.75,517.129,0.489484
5495,38.75,533.012,0.478319
5500,38.75,549.382,0.463034
5505,38.75,566.255,0.443877
5510,38.75,583.646,0.42131
5515,38.75,601.572,0.394266
5520,38.75,620.048,0.363554
5525,38.75,639.091,0.333165
5530,38.75,658.719,0.307109
5535,38.75,678.95,0.289937
5540,38.75,699.803,0.278806
5545,38.75,721.296,0.278502
5550,38.75,743.449,0.28035
5555,38.75,766.282,0.277556
5560,38.75,789.817,0.269851
5565,38.75,814.074,0.261791
5570,38.75,839.077,0.243721
5575,38.75,864.847,0.222777
5580,38.75,891.409,0.202512
5585,38.75,918.786,0.188122
5590,38.75,947.005,0.1764
5595,38.75,976.09,0.167672
5600,40.0,300,1.27596
5605,40.0,309.214,1.23912
5610,40.0,318.711,1.18191
5615,40.0,328.499,1.14221
5620,40.0,338.588,1.10691
5625,40.0,348.987,1.05399
5630,40.0,359.706,0.999834
5635,40.0,370.753,0.9593
5640,40.0,382.14,0.920519
5645,40.0,393.877,0.862944
5650,40.0,405.974,0.798412
5655,40.0,418.442,0.747939
5660,40.0,431.294,0.71133
5665,40.0,444.54,0.676654
5670,40.0,458.193,0.634963
5675,40.0,472.265,0.586404
5680,40.0,486.77,0.540533
5685,40.0,501.72,0.505577
5690,40.0,517.129,0.482844
5695,40.0,533.012,0.467111
5700,40.0,549.382,0.452387
5705,40.0,566.255,0.435553
5710,40.0,583.646,0.415614
5715,40.0,601.572,0.39127
5720,40.0,620.048,0.362515
5725,40.0,639.091,0.332672
5730,40.0,658.719,0.306146
5735,40.0,678.95,0.288107
5740,40.0,699.803,0.276189
5745,40.0,721.296,0.275418
5750,40.0,743.449,0.277179
5755,40.0,766.282,0.2745
5760,40.0,789.817,0.266874
5765,40.0,814.074,0.258843
5770,40.0,839.077,0.241025
5775,40.0,864.847,0.220391
5780,40.0,891.409,0.200406
5785,40.0,918.786,0.18614
5790,40.0,947.005,0.174797
5795,40.0,976.09,0.167083
5800,41.25,300,1.26257
5805,41.25,309.214,1.22704
5810,41.25,318.711,1.17226
5815,41.25,328.499,1.1322
5820,41.25,338.588,1.10693
5825,41.25,348.987,1.08197
5830,41.25,359.706,1.05017
5835,41.25,370.753,1.02314
5840,41.25,382.14,0.998031
5845,41.25,393.877,0.946038
5850,41.25,405.974,0.864874
5855,41.25,418.442,0.786398
5860,41.25,431.294,0.732844
5865,41.25,444.54,0.700596
5870,41.25,458.193,0.672218
5875,41.25,472.265,0.635052
5880,41.25,486.77,0.590525
5885,41.25,501.72,0.549111
5890,41.25,517.129,0.518282
5895,41.25,533.012,0.497028
5900,41.25,549.382,0.479864
5905,41.25,566.255,0.462393
5910,41.25,583.646,0.443646
5915,41.25,601.572,0.423133
5920,41.25,620.048,0.398935
5925,41.25,639.091,0.370592
5930,41.25,658.719,0.341437
5935,41.25,678.95,0.318177
5940,41.25,699.803,0.301083
5945,41.25,721.296,0.295856
5950,41.25,743.449,0.294586
5955,41.25,766.282,0.29097
5960,41.25,789.817,0.283454
5965,41.25,814.074,0.275429
5970,41.25,839.077,0.256649
5975,41.25,864.847,0.234741
5980,41.25,891.409,0.213511
5985,41.25,918.786,0.196778
5990,41.25,947.005,0.182629
5995,41.25,976.09,0.172062
6000,42.5,300,1.21524
6005,42.5,309.214,1.2181
6010,42.5,318.711,1.16991
6015,42.5,328.499,1.12166
6020,42.5,338.588,1.1038
6025,42.5,348.987,1.09027
6030,42.5,359.706,1.05242
6035,42.5,370.753,0.996872
6040,42.5,382.14,0.950904
6045,42.5,393.877,0.918345
6050,42.5,405.974,0.875875
6055,42.5,418.442,0.821397
6060,42.5,431.294,0.77122
6065,42.5,444.54,0.734005
6070,42.5,458.193,0.708384
6075,42.5,472.265,0.683915
6080,42.5,486.77,0.649904
6085,42.5,501.72,0.606204
6090,42.5,517.129,0.561343
6095,42.5,533.012,0.523228
6100,42.5,549.382,0.495022
6105,42.5,566.255,0.475356
6110,42.5,583.646,0.460161
6115,42.5,601.572,0.445242
6120,42.5,620.048,0.427096
6125,42.5,639.091,0.403123
6130,42.5,658.719,0.373278
6135,42.5,678.95,0.343278
6140,42.5,699.803,0.318326
6145,42.5,721.296,0.306458
6150,42.5,743.449,0.300618
6155,42.5,766.282,0.295684
6160,42.5,789.817,0.288922
6165,42.5,814.074,0.281589
6170,42.5,839.077,0.262611
6175,42.5,864.847,0.24019
6180,42.5,891.409,0.218453
6185,42.5,918.786,0.198944
6190,42.5,947.005,0.1814
6195,42.5,976.09,0.166665
6200,43.75,300,1.18589
6205,43.75,309.214,1.21468
6210,43.75,318.711,1.16847
6215,43.75,328.499,1.10542
6220,43.75,338.588,1.06881
6225,43.75,348.987,1.0479
6230,43.75,359.706,1.01448
6235,43.75,370.753,0.973991
6240,43.75,382.14,0.943693
6245,43.75,393.877,0.92398
6250,43.75,405.974,0.894416
6255,43.75,418.442,0.842177
6260,43.75,431.294,0.781124
6265,43.75,444.54,0.72772
6270,43.75,458.193,0.688791
6275,43.75,472.265,0.661493
6280,43.75,486.77,0.636028
6285,43.75,501.72,0.603867
6290,43.75,517.129,0.564917
6295,43.75,533.012,0.525991
6300,43.75,549.382,0.493409
6305,43.75,566.255,0.46875
6310,43.75,583.646,0.449569
6315,43.75,601.572,0.432748
6320,43.75,620.048,0.416324
6325,43.75,639.091,0.398835
6330,43.75,658.719,0.377104
6335,43.75,678.95,0.351522
6340,43.75,699.803,0.325882
6345,43.75,721.296,0.30993
6350,43.75,743.449,0.300336
6355,43.75,766.282,0.293496
6360,43.75,789.817,0.286409
6365,43.75,814.074,0.278998
6370,43.75,839.077,0.260444
6375,43.75,864.847,0.238622
6380,43.75,891.409,0.217562
6385,43.75,918.786,0.197302
6390,43.75,947.005,0.178263
6395,43.75,976.09,0.16109
6400,45.0,300,1.03188
6405,45.0,309.214,1.09865
6410,45.0,318.711,1.15306
6415,45.0,328.499,1.16868
6420,45.0,338.588,1.14478
6425,45.0,348.987,1.11111
6430,45.0,359.706,1.07849
6435,45.0,370.753,1.02852
6440,45.0,382.14,0.970173
6445,45.0,393.877,0.923677
6450,45.0,405.974,0.896451
6455,45.0,418.442,0.877764
6460,45.0,431.294,0.846
6465,45.0,444.54,0.797043
6470,45.0,458.193,0.744227
6475,45.0,472.265,0.699093
6480,45.0,486.77,0.664984
6485,45.0,501.72,0.635866
6490,45.0,517.129,0.604369
6495,45.0,533.012,0.567923
6500,45.0,549.382,0.529874
6505,45.0,566.255,0.496
6510,45.0,583.646,0.470244
6515,45.0,601.572,0.45293
6520,45.0,620.048,0.440994
6525,45.0,639.091,0.430724
6530,45.0,658.719,0.417326
6535,45.0,678.95,0.399006
6540,45.0,699.803,0.374503
6545,45.0,721.296,0.35152
6550,45.0,743.449,0.333897
6555,45.0,766.282,0.321635
6560,45.0,789.817,0.311832
6565,45.0,814.074,0.302414
6570,45.0,839.077,0.28307
6575,45.0,864.847,0.260921
6580,45.0,891.409,0.239784
6585,45.0,918.786,0.217783
6590,45.0,947.005,0.195881
6595,45.0,976.09,0.174519
6600,46.25,300,0.985682
6605,46.25,309.214,1.05334
6610,46.25,318.711,1.12236
6615,46.25,328.499,1.16226
6620,46.25,338.588,1.15425
6625,46.25,348.987,1.10959
6630,46.25,359.706,1.06845
6635,46.25,370.753,1.04409
6640,46.25,382.14,1.01074
6645,46.25,393.877,0.964012
6650,46.25,405.974,0.926065
6655,46.25,418.442,0.902453
6660,46.25,431.294,0.876381
6665,46.25,444.54,0.833875
6670,46.25,458.193,0.779928
6675,46.25,472.265,0.726985
6680,46.25,486.77,0.684527
6685,46.25,501.72,0.653316
6690,46.25,517.129,0.627092
6695,46.25,533.012,0.597813
6700,46.25,549.382,0.562436
6705,46.25,566.255,0.524672
6710,46.25,583.646,0.490916
6715,46.25,601.572,0.465215
6720,46.25,620.048,0.447441
6725,46.25,639.091,0.435141
6730,46.25,658.719,0.423325
6735,46.25,678.95,0.41089
6740,46.25,699.803,0.392776
6745,46.25,721.296,0.371897
6750,46.25,743.449,0.35294
6755,46.25,766.282,0.338403
6760,46.25,789.817,0.32685
6765,46.25,814.074,0.316155
6770,46.25,839.077,0.296247
6775,46.25,864.847,0.273805
6780,46.25,891.409,0.252536
6785,46.25,918.786,0.23058
6790,46.25,947.005,0.208116
6795,46.25,976.09,0.185146
6800,47.5,300,0.986035
6805,47.5,309.214,1.01879
6810,47.5,318.711,1.0714
6815,47.5,328.499,1.1227
6820,47.5,338.588,1.14543
6825,47.5,348.987,1.13106
6830,47.5,359.706,1.097
6835,47.5,370.753,1.06378
6840,47.5,382.14,1.02632
6845,47.5,393.877,0.974184
6850,47.5,405.974,0.918819
6855,47.5,418.442,0.876598
6860,47.5,431.294,0.846974
6865,47.5,444.54,0.818748
6870,47.5,458.193,0.785113
6875,47.5,472.265,0.747851
6880,47.5,486.77,0.710372
6885,47.5,501.72,0.676598
6890,47.5,517.129,0.647693
6895,47.5,533.012,0.619261
6900,47.5,549.382,0.586584
6905,47.5,566.255,0.549316
6910,47.5,583.646,0.511566
6915,47.5,601.572,0.478386
6920,47.5,620.048,0.453032
6925,47.5,639.091,0.436205
6930,47.5,658.719,0.423774
6935,47.5,678.95,0.414224
6940,47.5,699.803,0.40004
6945,47.5,721.296,0.381846
6950,47.5,743.449,0.363201
6955,47.5,766.282,0.34769
6960,47.5,789.817,0.335221
6965,47.5,814.074,0.323916
6970,47.5,839.077,0.303661
6975,47.5,864.847,0.280945
6980,47.5,891.409,0.259462
6985,47.5,918.786,0.237752
6990,47.5,947.005,0.215401
6995,47.5,976.09,0.191875
7000,48.75,300,0.986674
7005,48.75,309.214,0.997738
7010,48.75,318.711,1.01117
7015,48.75,328.499,1.04138
7020,48.75,338.588,1.08019
7025,48.75,348.987,1.10608
7030,48.75,359.706,1.10321
7035,48.75,370.753,1.08273
7040,48.75,382.14,1.06444
7045,48.75,393.877,1.03512
7050,48.75,405.974,0.985011
7055,48.75,418.442,0.935933
7060,48.75,431.294,0.902643
7065,48.75,444.54,0.877312
7070,48.75,458.193,0.843806
7075,48.75,472.265,0.799519
7080,48.75,486.77,0.752548
7085,48.75,501.72,0.708241
7090,48.75,517.129,0.670905
7095,48.75,533.012,0.642236
7100,48.75,549.382,0.618944
7105,48.75,566.255,0.594642
7110,48.75,583.646,0.564955
7115,48.75,601.572,0.530726
7120,48.75,620.048,0.496982
7125,48.75,639.091,0.469306
7130,48.75,658.719,0.448607
7135,48.75,678.95,0.436254
7140,48.75,699.803,0.42438
7145,48.75,721.296,0.411633
7150,48.75,743.449,0.395485
7155,48.75,766.282,0.378186
7160,48.75,789.817,0.362714
7165,48.75,814.074,0.348965
7170,48.75,839.077,0.32747
7175,48.75,864.847,0.303907
7180,48.75,891.409,0.281676
7185,48.75,918.786,0.2612
7190,48.75,947.005,0.240797
7195,48.75,976.09,0.218211
7200,50.0,300,0.934254
7205,50.0,309.214,0.965942
7210,50.0,318.711,1.00103
7215,50.0,328.499,1.03377
7220,50.0,338.588,1.06908
7225,50.0,348.987,1.10409
7230,50.0,359.706,1.11747
7235,50.0,370.753,1.10001
7240,50.0,382.14,1.07181
7245,50.0,393.877,1.04635
7250,50.0,405.974,1.01361
7255,50.0,418.442,0.969401
7260,50.0,431.294,0.925066
7265,50.0,444.54,0.890543
7270,50.0,458.193,0.860039
7275,50.0,472.265,0.82263
7280,50.0,486.77,0.777526
7285,50.0,501.72,0.732282
7290,50.0,517.129,0.692635
7295,50.0,533.012,0.660332
7300,50.0,549.382,0.634323
7305,50.0,566.255,0.610388
7310,50.0,583.646,0.583774
7315,50.0,601.572,0.552428
7320,50.0,620.048,0.518417
7325,50.0,639.091,0.486889
7330,50.0,658.719,0.461368
7335,50.0,678.95,0.44642
7340,50.0,699.803,0.434787
7345,50.0,721.296,0.424731
7350,50.0,743.449,0.410996
7355,50.0,766.282,0.393867
7360,50.0,789.817,0.377236
7365,50.0,814.074,0.362446
7370,50.0,839.077,0.340208
7375,50.0,864.847,0.315951
7380,50.0,891.409,0.292967
7385,50.0,918.786,0.27327
7390,50.0,947.005,0.254794
7395,50.0,976.09,0.23504
7399,50.0,1000,0.215774